; From SOPRA S.A. http://www.sopra-sa.com/indices.htm
; Filename    Symbol               Range (nm)     Description
; 7059        7059                250      900    Glass 7059
; lambda/nm       n         k
250.00 	1.60055400 	0.00000000 
260.00 	1.59857300 	0.00000000 
270.00 	1.59482700 	0.00000000 
280.00 	1.58969800 	0.00000000 
290.00 	1.58048100 	0.00000000 
300.00 	1.57886000 	0.00000000 
310.00 	1.57399600 	0.00000000 
320.00 	1.57045500 	0.00000000 
330.00 	1.56752900 	0.00000000 
340.00 	1.56541200 	0.00000000 
350.00 	1.56274600 	0.00000000 
360.00 	1.56088700 	0.00000000 
370.00 	1.55766000 	0.00000000 
380.00 	1.55633400 	0.00000000 
390.00 	1.55432700 	0.00000000 
400.00 	1.55306900 	0.00000000 
410.00 	1.55091900 	0.00000000 
420.00 	1.55019200 	0.00000000 
430.00 	1.54929500 	0.00000000 
440.00 	1.54872600 	0.00000000 
450.00 	1.54757800 	0.00000000 
460.00 	1.54617600 	0.00000000 
470.00 	1.54512800 	0.00000000 
480.00 	1.54449900 	0.00000000 
490.00 	1.54437700 	0.00000000 
500.00 	1.54388700 	0.00000000 
510.00 	1.54284300 	0.00000000 
520.00 	1.54141600 	0.00000000 
530.00 	1.54185300 	0.00000000 
540.00 	1.54127800 	0.00000000 
550.00 	1.54088800 	0.00000000 
560.00 	1.54158700 	0.00000000 
570.00 	1.54159900 	0.00000000 
580.00 	1.54002400 	0.00000000 
590.00 	1.53908100 	0.00000000 
600.00 	1.53943900 	0.00000000 
610.00 	1.53780500 	0.00000000 
620.00 	1.53736500 	0.00000000 
630.00 	1.53684200 	0.00000000 
640.00 	1.53564300 	0.00000000 
650.00 	1.53524200 	0.00000000 
660.00 	1.53533000 	0.00000000 
670.00 	1.53487000 	0.00000000 
680.00 	1.53405600 	0.00000000 
690.00 	1.53388400 	0.00000000 
700.00 	1.53379100 	0.00000000 
710.00 	1.53268300 	0.00000000 
720.00 	1.53363800 	0.00000000 
730.00 	1.53364600 	0.00000000 
740.00 	1.53203200 	0.00000000 
750.00 	1.53174300 	0.00000000 
760.00 	1.53245600 	0.00000000 
770.00 	1.53126900 	0.00000000 
780.00 	1.53192700 	0.00000000 
790.00 	1.53235500 	0.00000000 
800.00 	1.53137400 	0.00000000 
810.00 	1.53089500 	0.00000000 
820.00 	1.52931400 	0.00000000 
830.00 	1.52999800 	0.00000000 
840.00 	1.53049000 	0.00000000 
850.00 	1.53256200 	0.00000000 
